<Bundle xmlns="http://hl7.org/fhir">
   <type value="transaction"></type>
   <entry>
      <fullUrl value="urn:uuid:636a8f10-b840-4788-bec1-d95a61293878"></fullUrl>
      <resource>
         <Organization xmlns="http://hl7.org/fhir">
            <meta>
               <profile value="http://dsf.dev/fhir/StructureDefinition/organization"></profile>
               <tag>
                  <system value="http://dsf.dev/fhir/CodeSystem/read-access-tag"></system>
                  <code value="ALL"></code>
               </tag>
            </meta>
            <extension url="http://dsf.dev/fhir/StructureDefinition/extension-certificate-thumbprint">
               <valueString value="36ea7ea651e073f021ca4d6082847c565d8daa00ac7182b1d61ef8246896b4be0b97130b67f962beb7a1914b6df24a9c754bca1a32b43a7ef5e7a3385d39bda7"></valueString>
            </extension>
            <identifier>
               <system value="http://dsf.dev/sid/organization-identifier"></system>
               <value value="dic.b.test"></value>
            </identifier>
            <active value="true"></active>
            <name value="Test DIC B"></name>
            <endpoint>
               <reference value="urn:uuid:b144666d-9cf7-4ae3-98e0-63898659f682"></reference>
               <type value="Endpoint"></type>
            </endpoint>
         </Organization>
      </resource>
      <request>
         <method value="PUT"></method>
         <url value="Organization?identifier=http://dsf.dev/sid/organization-identifier|dic.b.test"></url>
      </request>
   </entry>
   <entry>
      <fullUrl value="urn:uuid:fa3e01c6-f5a8-415b-9f71-d0f011ac73d5"></fullUrl>
      <resource>
         <Organization xmlns="http://hl7.org/fhir">
            <meta>
               <profile value="http://dsf.dev/fhir/StructureDefinition/organization"></profile>
               <tag>
                  <system value="http://dsf.dev/fhir/CodeSystem/read-access-tag"></system>
                  <code value="ALL"></code>
               </tag>
            </meta>
            <extension url="http://dsf.dev/fhir/StructureDefinition/extension-certificate-thumbprint">
               <valueString value="89057b2bd3fd2d8ecb531a06ff85858804ea6bba49f87ee62a4a2dd9b3574ee20a479d8de3a34b39f45e4d81a7ceedd30bbcbb7134b22c396eb7441feee63517"></valueString>
            </extension>
            <identifier>
               <system value="http://dsf.dev/sid/organization-identifier"></system>
               <value value="dic.a.test"></value>
            </identifier>
            <active value="true"></active>
            <name value="Test DIC A"></name>
            <endpoint>
               <reference value="urn:uuid:57cacf98-04ba-453e-ad4a-891e21b0c975"></reference>
               <type value="Endpoint"></type>
            </endpoint>
         </Organization>
      </resource>
      <request>
         <method value="PUT"></method>
         <url value="Organization?identifier=http://dsf.dev/sid/organization-identifier|dic.a.test"></url>
      </request>
   </entry>
   <entry>
      <fullUrl value="urn:uuid:f5c36ed1-c234-4361-8ad2-ba1a80f6e67e"></fullUrl>
      <resource>
         <Organization xmlns="http://hl7.org/fhir">
            <meta>
               <profile value="http://dsf.dev/fhir/StructureDefinition/organization"></profile>
               <tag>
                  <system value="http://dsf.dev/fhir/CodeSystem/read-access-tag"></system>
                  <code value="ALL"></code>
               </tag>
            </meta>
            <extension url="http://dsf.dev/fhir/StructureDefinition/extension-certificate-thumbprint">
               <valueString value="012e2e2b74e3b4ab0ec5f5d548d11b5cab41d596d6416862b49ac98bbbea30bc6ab49aeb9132940a15ab507b793a916948b50ea0c1de3800ac0479bdd1e06066"></valueString>
            </extension>
            <identifier>
               <system value="http://dsf.dev/sid/organization-identifier"></system>
               <value value="dic.c.test"></value>
            </identifier>
            <active value="true"></active>
            <name value="Test DIC C"></name>
            <endpoint>
               <reference value="urn:uuid:eac79c81-e085-4a85-9722-e734a487417e"></reference>
               <type value="Endpoint"></type>
            </endpoint>
         </Organization>
      </resource>
      <request>
         <method value="PUT"></method>
         <url value="Organization?identifier=http://dsf.dev/sid/organization-identifier|dic.c.test"></url>
      </request>
   </entry>
   <entry>
      <fullUrl value="urn:uuid:3e5b8e27-9539-4ba6-a2ae-2268b1c551ed"></fullUrl>
      <resource>
         <Organization xmlns="http://hl7.org/fhir">
            <meta>
               <profile value="http://dsf.dev/fhir/StructureDefinition/organization"></profile>
               <tag>
                  <system value="http://dsf.dev/fhir/CodeSystem/read-access-tag"></system>
                  <code value="ALL"></code>
               </tag>
            </meta>
            <extension url="http://dsf.dev/fhir/StructureDefinition/extension-certificate-thumbprint">
               <valueString value="3ac8d648d5b3e1c1b43c17c2316258d66679e2993ad0b1880244e678d55043ab2550873224a4d98aae049b469dfed9cb01c225f470c6225e835c0ab2dcd6ade2"></valueString>
            </extension>
            <identifier>
               <system value="http://dsf.dev/sid/organization-identifier"></system>
               <value value="dic.d.test"></value>
            </identifier>
            <active value="true"></active>
            <name value="Test DIC D"></name>
            <endpoint>
               <reference value="urn:uuid:be4f0939-5c9b-4c8f-aeab-6f1375dce526"></reference>
               <type value="Endpoint"></type>
            </endpoint>
         </Organization>
      </resource>
      <request>
         <method value="PUT"></method>
         <url value="Organization?identifier=http://dsf.dev/sid/organization-identifier|dic.d.test"></url>
      </request>
   </entry>
   <entry>
      <fullUrl value="urn:uuid:b144666d-9cf7-4ae3-98e0-63898659f682"></fullUrl>
      <resource>
         <Endpoint xmlns="http://hl7.org/fhir">
            <meta>
               <profile value="http://dsf.dev/fhir/StructureDefinition/endpoint"></profile>
               <tag>
                  <system value="http://dsf.dev/fhir/CodeSystem/read-access-tag"></system>
                  <code value="ALL"></code>
               </tag>
            </meta>
            <identifier>
               <system value="http://dsf.dev/sid/endpoint-identifier"></system>
               <value value="dic.b.test_Endpoint"></value>
            </identifier>
            <status value="active"></status>
            <connectionType>
               <system value="http://terminology.hl7.org/CodeSystem/endpoint-connection-type"></system>
               <code value="hl7-fhir-rest"></code>
            </connectionType>
            <name value="Test DIC B Endpoint"></name>
            <managingOrganization>
               <reference value="urn:uuid:636a8f10-b840-4788-bec1-d95a61293878"></reference>
               <type value="Organization"></type>
            </managingOrganization>
            <payloadType>
               <coding>
                  <system value="http://hl7.org/fhir/resource-types"></system>
                  <code value="Task"></code>
               </coding>
            </payloadType>
            <payloadMimeType value="application/fhir+json"></payloadMimeType>
            <payloadMimeType value="application/fhir+xml"></payloadMimeType>
            <address value="https://dic-b/fhir"></address>
         </Endpoint>
      </resource>
      <request>
         <method value="PUT"></method>
         <url value="Endpoint?identifier=http://dsf.dev/sid/endpoint-identifier|dic.b.test_Endpoint"></url>
      </request>
   </entry>
   <entry>
      <fullUrl value="urn:uuid:57cacf98-04ba-453e-ad4a-891e21b0c975"></fullUrl>
      <resource>
         <Endpoint xmlns="http://hl7.org/fhir">
            <meta>
               <profile value="http://dsf.dev/fhir/StructureDefinition/endpoint"></profile>
               <tag>
                  <system value="http://dsf.dev/fhir/CodeSystem/read-access-tag"></system>
                  <code value="ALL"></code>
               </tag>
            </meta>
            <identifier>
               <system value="http://dsf.dev/sid/endpoint-identifier"></system>
               <value value="dic.a.test_Endpoint"></value>
            </identifier>
            <status value="active"></status>
            <connectionType>
               <system value="http://terminology.hl7.org/CodeSystem/endpoint-connection-type"></system>
               <code value="hl7-fhir-rest"></code>
            </connectionType>
            <name value="Test DIC A Endpoint"></name>
            <managingOrganization>
               <reference value="urn:uuid:fa3e01c6-f5a8-415b-9f71-d0f011ac73d5"></reference>
               <type value="Organization"></type>
            </managingOrganization>
            <payloadType>
               <coding>
                  <system value="http://hl7.org/fhir/resource-types"></system>
                  <code value="Task"></code>
               </coding>
            </payloadType>
            <payloadMimeType value="application/fhir+json"></payloadMimeType>
            <payloadMimeType value="application/fhir+xml"></payloadMimeType>
            <address value="https://dic-a/fhir"></address>
         </Endpoint>
      </resource>
      <request>
         <method value="PUT"></method>
         <url value="Endpoint?identifier=http://dsf.dev/sid/endpoint-identifier|dic.a.test_Endpoint"></url>
      </request>
   </entry>
   <entry>
      <fullUrl value="urn:uuid:eac79c81-e085-4a85-9722-e734a487417e"></fullUrl>
      <resource>
         <Endpoint xmlns="http://hl7.org/fhir">
            <meta>
               <profile value="http://dsf.dev/fhir/StructureDefinition/endpoint"></profile>
               <tag>
                  <system value="http://dsf.dev/fhir/CodeSystem/read-access-tag"></system>
                  <code value="ALL"></code>
               </tag>
            </meta>
            <identifier>
               <system value="http://dsf.dev/sid/endpoint-identifier"></system>
               <value value="dic.c.test_Endpoint"></value>
            </identifier>
            <status value="active"></status>
            <connectionType>
               <system value="http://terminology.hl7.org/CodeSystem/endpoint-connection-type"></system>
               <code value="hl7-fhir-rest"></code>
            </connectionType>
            <name value="Test DIC C Endpoint"></name>
            <managingOrganization>
               <reference value="urn:uuid:f5c36ed1-c234-4361-8ad2-ba1a80f6e67e"></reference>
               <type value="Organization"></type>
            </managingOrganization>
            <payloadType>
               <coding>
                  <system value="http://hl7.org/fhir/resource-types"></system>
                  <code value="Task"></code>
               </coding>
            </payloadType>
            <payloadMimeType value="application/fhir+json"></payloadMimeType>
            <payloadMimeType value="application/fhir+xml"></payloadMimeType>
            <address value="https://dic-c/fhir"></address>
         </Endpoint>
      </resource>
      <request>
         <method value="PUT"></method>
         <url value="Endpoint?identifier=http://dsf.dev/sid/endpoint-identifier|dic.c.test_Endpoint"></url>
      </request>
   </entry>
   <entry>
      <fullUrl value="urn:uuid:be4f0939-5c9b-4c8f-aeab-6f1375dce526"></fullUrl>
      <resource>
         <Endpoint xmlns="http://hl7.org/fhir">
            <meta>
               <profile value="http://dsf.dev/fhir/StructureDefinition/endpoint"></profile>
               <tag>
                  <system value="http://dsf.dev/fhir/CodeSystem/read-access-tag"></system>
                  <code value="ALL"></code>
               </tag>
            </meta>
            <identifier>
               <system value="http://dsf.dev/sid/endpoint-identifier"></system>
               <value value="dic.d.test_Endpoint"></value>
            </identifier>
            <status value="active"></status>
            <connectionType>
               <system value="http://terminology.hl7.org/CodeSystem/endpoint-connection-type"></system>
               <code value="hl7-fhir-rest"></code>
            </connectionType>
            <name value="Test DIC D Endpoint"></name>
            <managingOrganization>
               <reference value="urn:uuid:3e5b8e27-9539-4ba6-a2ae-2268b1c551ed"></reference>
               <type value="Organization"></type>
            </managingOrganization>
            <payloadType>
               <coding>
                  <system value="http://hl7.org/fhir/resource-types"></system>
                  <code value="Task"></code>
               </coding>
            </payloadType>
            <payloadMimeType value="application/fhir+json"></payloadMimeType>
            <payloadMimeType value="application/fhir+xml"></payloadMimeType>
            <address value="https://dic-d/fhir"></address>
         </Endpoint>
      </resource>
      <request>
         <method value="PUT"></method>
         <url value="Endpoint?identifier=http://dsf.dev/sid/endpoint-identifier|dic.d.test_Endpoint"></url>
      </request>
   </entry>
   <entry>
      <fullUrl value="urn:uuid:00c91f02-2e2f-44cb-b17a-68e10c065735"></fullUrl>
      <resource>
         <Organization xmlns="http://hl7.org/fhir">
            <meta>
               <profile value="http://dsf.dev/fhir/StructureDefinition/organization-parent"></profile>
               <tag>
                  <system value="http://dsf.dev/fhir/CodeSystem/read-access-tag"></system>
                  <code value="ALL"></code>
               </tag>
            </meta>
            <identifier>
               <system value="http://dsf.dev/sid/organization-identifier"></system>
               <value value="eyematics.org"></value>
            </identifier>
            <active value="true"></active>
            <name value="Medizininformatik-Initiative"></name>
         </Organization>
      </resource>
      <request>
         <method value="PUT"></method>
         <url value="Organization?identifier=http://dsf.dev/sid/organization-identifier|eyematics.org"></url>
      </request>
   </entry>
   <entry>
      <fullUrl value="urn:uuid:d1e64572-04b3-47c8-b302-c1776b5e44f5"></fullUrl>
      <resource>
         <OrganizationAffiliation xmlns="http://hl7.org/fhir">
            <meta>
               <profile value="http://dsf.dev/fhir/StructureDefinition/organization-affiliation"></profile>
               <tag>
                  <system value="http://dsf.dev/fhir/CodeSystem/read-access-tag"></system>
                  <code value="ALL"></code>
               </tag>
            </meta>
            <active value="true"></active>
            <organization>
               <reference value="urn:uuid:00c91f02-2e2f-44cb-b17a-68e10c065735"></reference>
               <type value="Organization"></type>
            </organization>
            <participatingOrganization>
               <reference value="urn:uuid:636a8f10-b840-4788-bec1-d95a61293878"></reference>
               <type value="Organization"></type>
            </participatingOrganization>
            <code>
               <coding>
                  <system value="http://dsf.dev/fhir/CodeSystem/organization-role"></system>
                  <code value="DIC"></code>
               </coding>
            </code>
            <endpoint>
               <reference value="urn:uuid:b144666d-9cf7-4ae3-98e0-63898659f682"></reference>
               <type value="Endpoint"></type>
            </endpoint>
         </OrganizationAffiliation>
      </resource>
      <request>
         <method value="PUT"></method>
         <url value="OrganizationAffiliation?primary-organization:identifier=http://dsf.dev/sid/organization-identifier|eyematics.org&amp;participating-organization:identifier=http://dsf.dev/sid/organization-identifier|dic.b.test"></url>
      </request>
   </entry>
   <entry>
      <fullUrl value="urn:uuid:d1e64572-04b3-47c8-b302-c1776b5e43e4"></fullUrl>
      <resource>
         <OrganizationAffiliation xmlns="http://hl7.org/fhir">
            <meta>
               <profile value="http://dsf.dev/fhir/StructureDefinition/organization-affiliation"></profile>
               <tag>
                  <system value="http://dsf.dev/fhir/CodeSystem/read-access-tag"></system>
                  <code value="ALL"></code>
               </tag>
            </meta>
            <active value="true"></active>
            <organization>
               <reference value="urn:uuid:00c91f02-2e2f-44cb-b17a-68e10c065735"></reference>
               <type value="Organization"></type>
            </organization>
            <participatingOrganization>
               <reference value="urn:uuid:fa3e01c6-f5a8-415b-9f71-d0f011ac73d5"></reference>
               <type value="Organization"></type>
            </participatingOrganization>
            <code>
               <coding>
                  <system value="http://dsf.dev/fhir/CodeSystem/organization-role"></system>
                  <code value="DIC"></code>
               </coding>
            </code>
            <endpoint>
               <reference value="urn:uuid:57cacf98-04ba-453e-ad4a-891e21b0c975"></reference>
               <type value="Endpoint"></type>
            </endpoint>
         </OrganizationAffiliation>
      </resource>
      <request>
         <method value="PUT"></method>
         <url value="OrganizationAffiliation?primary-organization:identifier=http://dsf.dev/sid/organization-identifier|eyematics.org&amp;participating-organization:identifier=http://dsf.dev/sid/organization-identifier|dic.a.test"></url>
      </request>
   </entry>
   <entry>
      <fullUrl value="urn:uuid:d1e64572-04b3-47c8-b302-c1776b5e42d3"></fullUrl>
      <resource>
         <OrganizationAffiliation xmlns="http://hl7.org/fhir">
            <meta>
               <profile value="http://dsf.dev/fhir/StructureDefinition/organization-affiliation"></profile>
               <tag>
                  <system value="http://dsf.dev/fhir/CodeSystem/read-access-tag"></system>
                  <code value="ALL"></code>
               </tag>
            </meta>
            <active value="true"></active>
            <organization>
               <reference value="urn:uuid:00c91f02-2e2f-44cb-b17a-68e10c065735"></reference>
               <type value="Organization"></type>
            </organization>
            <participatingOrganization>
               <reference value="urn:uuid:f5c36ed1-c234-4361-8ad2-ba1a80f6e67e"></reference>
               <type value="Organization"></type>
            </participatingOrganization>
            <code>
               <coding>
                  <system value="http://dsf.dev/fhir/CodeSystem/organization-role"></system>
                  <code value="DIC"></code>
               </coding>
            </code>
            <endpoint>
               <reference value="urn:uuid:eac79c81-e085-4a85-9722-e734a487417e"></reference>
               <type value="Endpoint"></type>
            </endpoint>
         </OrganizationAffiliation>
      </resource>
      <request>
         <method value="PUT"></method>
         <url value="OrganizationAffiliation?primary-organization:identifier=http://dsf.dev/sid/organization-identifier|eyematics.org&amp;participating-organization:identifier=http://dsf.dev/sid/organization-identifier|dic.c.test"></url>
      </request>
   </entry>
   <entry>
      <fullUrl value="urn:uuid:fe007019-8eda-45b8-8bab-1c7e69a9601a"></fullUrl>
      <resource>
         <OrganizationAffiliation xmlns="http://hl7.org/fhir">
            <meta>
               <profile value="http://dsf.dev/fhir/StructureDefinition/organization-affiliation"></profile>
               <tag>
                  <system value="http://dsf.dev/fhir/CodeSystem/read-access-tag"></system>
                  <code value="ALL"></code>
               </tag>
            </meta>
            <active value="true"></active>
            <organization>
               <reference value="urn:uuid:00c91f02-2e2f-44cb-b17a-68e10c065735"></reference>
               <type value="Organization"></type>
            </organization>
            <participatingOrganization>
               <reference value="urn:uuid:3e5b8e27-9539-4ba6-a2ae-2268b1c551ed"></reference>
               <type value="Organization"></type>
            </participatingOrganization>
            <code>
               <coding>
                  <system value="http://dsf.dev/fhir/CodeSystem/organization-role"></system>
                  <code value="DIC"></code>
               </coding>
            </code>
            <endpoint>
               <reference value="urn:uuid:be4f0939-5c9b-4c8f-aeab-6f1375dce526"></reference>
               <type value="Endpoint"></type>
            </endpoint>
         </OrganizationAffiliation>
      </resource>
      <request>
         <method value="PUT"></method>
         <url value="OrganizationAffiliation?primary-organization:identifier=http://dsf.dev/sid/organization-identifier|eyematics.org&amp;participating-organization:identifier=http://dsf.dev/sid/organization-identifier|dic.d.test"></url>
      </request>
   </entry>
</Bundle>